{
  "resourceType" : "Bundle",
  "id" : "gravitate-ips-2",
  "meta" : {
    "profile" : ["http://hl7.org/fhir/uv/ips/StructureDefinition/Bundle-uv-ips"]
  },
  "identifier" : {
    "system" : "https://www.gravitatehealth.eu/sid/doc",
    "value" : "ips-2"
  },
  "type" : "document",
  "timestamp" : "2021-09-03T08:38:00+02:00",
  "entry" : [{
    "fullUrl" : "https://myserver.org/Composition/2fa5b223-ebce-4f39-9c66-5dc014f73573",
    "resource" : {
      "resourceType" : "Composition",
      "id" : "ips-example-2",
      "meta" : {
        "profile" : ["http://hl7.org/fhir/uv/ips/StructureDefinition/Composition-uv-ips"]
      },
      "text" : {
        "status" : "generated",
        "div" : "<div xmlns=\"http://www.w3.org/1999/xhtml\"><p><b>Generated Narrative: Composition</b><a name=\"ips-example-2\"> </a></p><div style=\"display: inline-block; background-color: #d9e0e7; padding: 6px; margin: 4px; border: 1px solid #8da1b4; border-radius: 5px; line-height: 60%\"><p style=\"margin-bottom: 0px\">Resource Composition &quot;ips-example-2&quot; </p><p style=\"margin-bottom: 0px\">Profile: <a href=\"https://build.fhir.org/ig/HL7/fhir-ips//StructureDefinition-Composition-uv-ips.html\">Composition (IPS)</a></p></div><p><b>status</b>: final</p><p><b>type</b>: Patient summary Document <span style=\"background: LightGoldenRodYellow; margin: 4px; border: 1px solid khaki\"> (<a href=\"https://loinc.org/\">LOINC</a>#60591-5)</span></p><p><b>date</b>: 2018-07-10 15:22:00+0200</p><p><b>author</b>: <a href=\"#Practitioner_1ece89c5-fda3-4db9-ace6-decbe6c603d3\">See above (Practitioner/1ece89c5-fda3-4db9-ace6-decbe6c603d3: Dr. Number2)</a></p><p><b>title</b>: Patient Summary (IPS2)</p><p><b>confidentiality</b>: N</p></div>"
      },
      "status" : "final",
      "type" : {
        "coding" : [{
          "system" : "http://loinc.org",
          "code" : "60591-5",
          "display" : "Patient summary Document"
        }]
      },
      "subject" : {
        "reference" : "Patient/c154158f-6a43-4ab7-8443-e7f4bf915dd3",
        "display" : "IPS-2"
      },
      "date" : "2018-07-10T15:22:00+02:00",
      "author" : [{
        "reference" : "Practitioner/1ece89c5-fda3-4db9-ace6-decbe6c603d3",
        "display" : "Dr. Number2"
      }],
      "title" : "Patient Summary (IPS2)",
      "confidentiality" : "N",
      "section" : [{
        "title" : "Medication Summary",
        "code" : {
          "coding" : [{
            "system" : "http://loinc.org",
            "code" : "10160-0",
            "display" : "Hx of Medication use"
          }]
        },
        "text" : {
          "status" : "generated",
          "div" : "<div xmlns=\"http://www.w3.org/1999/xhtml\"><ul><li>Ogivri\ttrastuzumab 150 mg\tpowder for concentrate for solution for infusion</li></ul><ul><li>Lipcut\tSimvastatin\t5 mg\ttablet</li></ul><ul><li>Enbrel Etanercept 25 mg powder for solution for injection</li></ul><ul><li>Tegretol Carbamazepine\t200 mg\ttablets</li></ul></div>"
        },
        "entry" : [{
          "reference" : "MedicationStatement/29074ca4-efcb-4ff4-8446-feed2399a893",
          "display" : "Ogivri\ttrastuzumab 150 mg\tpowder for concentrate for solution for infusion"
        },
        {
          "reference" : "MedicationStatement/f6cb1218-f81c-4338-80d8-3c10910f78f3",
          "display" : "Lipcut\tSimvastatin\t5 mg tablet"
        },
        {
          "reference" : "MedicationStatement/f26084c9-b1c8-46d9-acb2-1d400ade87b3",
          "display" : "Enbrel Etanercept 25 mg powder for solution for injection"
        },
        {
          "reference" : "MedicationStatement/f26084c9-b1c8-46d9-acb2-1d400ade94gy",
          "display" : "Tegretol Carbamazepine\t200 mg\ttablets"
        }]
      },
      {
        "title" : "Allergies and Intolerances",
        "code" : {
          "coding" : [{
            "system" : "http://loinc.org",
            "code" : "48765-2",
            "display" : "Allergies and adverse reactions Document"
          }]
        },
        "text" : {
          "status" : "generated",
          "div" : "<div xmlns=\"http://www.w3.org/1999/xhtml\"><ul><li>No infos about Allergies</li></ul></div>"
        },
        "entry" : [{
          "reference" : "AllergyIntolerance/0dff4474-fa08-4f45-8260-dbb23094bf07",
          "display" : "No infos about Allergies"
        }]
      },
      {
        "title" : "Problem List",
        "code" : {
          "coding" : [{
            "system" : "http://loinc.org",
            "code" : "11450-4",
            "display" : "Problem list Reported"
          }]
        },
        "text" : {
          "status" : "generated",
          "div" : "<div xmlns=\"http://www.w3.org/1999/xhtml\"><ul><li>Malignant neoplasm of breast (disorder)</li></ul><ul><li>Hypercholesterolemia</li></ul><ul><li>Rheumatoid arthritis</li></ul><ul><li>Epilepsy</li></ul></div>"
        },
        "entry" : [{
          "reference" : "Condition/bcc79261-142c-48ec-b032-f3f9af49ec53",
          "display" : "Malignant neoplasm of breast (disorder)"
        },
        {
          "reference" : "Condition/f06b7cf8-c15c-4288-a0f9-45a1026e5133",
          "display" : "Hypercholesterolemia"
        },
        {
          "reference" : "Condition/a4a9d90a-d1b0-4d60-82f0-c52343dc6253",
          "display" : "Rheumatoid arthritis"
        },
        {
          "reference" : "Condition/f06b7cf8-c15c-4288-a0f9-45a1026e6788",
          "display" : "Epilepsy (disorder)"
        }]
      }]
    }
  },
  {
    "fullUrl" : "https://myserver.org/Patient/c154158f-6a43-4ab7-8443-e7f4bf915dd3",
    "resource" : {
      "resourceType" : "Patient",
      "id" : "c154158f-6a43-4ab7-8443-e7f4bf915dd3",
      "text" : {
        "status" : "extensions",
        "div" : "<div xmlns=\"http://www.w3.org/1999/xhtml\"><p><b>Generated Narrative: Patient</b><a name=\"c154158f-6a43-4ab7-8443-e7f4bf915dd3\"> </a></p><div style=\"display: inline-block; background-color: #d9e0e7; padding: 6px; margin: 4px; border: 1px solid #8da1b4; border-radius: 5px; line-height: 60%\"><p style=\"margin-bottom: 0px\">Resource Patient &quot;c154158f-6a43-4ab7-8443-e7f4bf915dd3&quot; </p></div><blockquote><p><b>citizenship</b></p><blockquote><p><b>url</b></p><a href=\"http://hl7.org/fhir/R4/datatypes.html#code\">code</a></blockquote><p><b>value</b>: Norway <span style=\"background: LightGoldenRodYellow; margin: 4px; border: 1px solid khaki\"> (<a href=\"http://terminology.hl7.org/5.0.0/CodeSystem-ISO3166Part1.html\">ISO 3166-1 Codes for the representation of names of countries and their subdivisions — Part 1: Country code</a>#NO)</span></p></blockquote><p><b>identifier</b>: id:\u00a0ips-2</p><p><b>active</b>: true</p><p><b>name</b>: IPS-2 Gravitate </p><p><b>gender</b>: female</p><p><b>birthDate</b>: 1946-05-05</p></div>"
      },
      "extension" : [{
        "extension" : [{
          "url" : "code",
          "valueCodeableConcept" : {
            "coding" : [{
              "system" : "urn:iso:std:iso:3166",
              "code" : "NO",
              "display" : "Norway"
            }]
          }
        }],
        "url" : "http://hl7.org/fhir/StructureDefinition/patient-citizenship"
      }],
      "identifier" : [{
        "system" : "https://www.gravitatehealth.eu/sid/doc",
        "value" : "ips-2"
      }],
      "active" : true,
      "name" : [{
        "family" : "Gravitate",
        "given" : ["IPS-2"]
      }],
      "gender" : "female",
      "birthDate" : "1946-05-05"
    }
  },
  {
    "fullUrl" : "https://myserver.org/Practitioner/1ece89c5-fda3-4db9-ace6-decbe6c603d3",
    "resource" : {
      "resourceType" : "Practitioner",
      "id" : "1ece89c5-fda3-4db9-ace6-decbe6c603d3",
      "text" : {
        "status" : "generated",
        "div" : "<div xmlns=\"http://www.w3.org/1999/xhtml\"><p><b>Generated Narrative: Practitioner</b><a name=\"1ece89c5-fda3-4db9-ace6-decbe6c603d3\"> </a></p><div style=\"display: inline-block; background-color: #d9e0e7; padding: 6px; margin: 4px; border: 1px solid #8da1b4; border-radius: 5px; line-height: 60%\"><p style=\"margin-bottom: 0px\">Resource Practitioner &quot;1ece89c5-fda3-4db9-ace6-decbe6c603d3&quot; </p></div><p><b>name</b>: IPS 2 </p></div>"
      },
      "name" : [{
        "family" : "2",
        "given" : ["IPS"],
        "prefix" : ["Dr."]
      }]
    }
  },
  {
    "fullUrl" : "https://myserver.org/AllergyIntolerance/0dff4474-fa08-4f45-8260-dbb23094bf07",
    "resource" : {
      "resourceType" : "AllergyIntolerance",
      "id" : "0dff4474-fa08-4f45-8260-dbb23094bf07",
      "meta" : {
        "profile" : ["http://hl7.org/fhir/uv/ips/StructureDefinition/AllergyIntolerance-uv-ips"]
      },
      "text" : {
        "status" : "generated",
        "div" : "<div xmlns=\"http://www.w3.org/1999/xhtml\"><p><b>Generated Narrative: AllergyIntolerance</b><a name=\"0dff4474-fa08-4f45-8260-dbb23094bf07\"> </a></p><div style=\"display: inline-block; background-color: #d9e0e7; padding: 6px; margin: 4px; border: 1px solid #8da1b4; border-radius: 5px; line-height: 60%\"><p style=\"margin-bottom: 0px\">Resource AllergyIntolerance &quot;0dff4474-fa08-4f45-8260-dbb23094bf07&quot; </p><p style=\"margin-bottom: 0px\">Profile: <a href=\"https://build.fhir.org/ig/HL7/fhir-ips//StructureDefinition-AllergyIntolerance-uv-ips.html\">Allergy Intolerance (IPS)</a></p></div><p><b>clinicalStatus</b>: Active <span style=\"background: LightGoldenRodYellow; margin: 4px; border: 1px solid khaki\"> (<a href=\"http://terminology.hl7.org/5.0.0/CodeSystem-allergyintolerance-clinical.html\">AllergyIntolerance Clinical Status Codes</a>#active)</span></p><p><b>verificationStatus</b>: Confirmed <span style=\"background: LightGoldenRodYellow; margin: 4px; border: 1px solid khaki\"> (<a href=\"http://terminology.hl7.org/5.0.0/CodeSystem-allergyintolerance-verification.html\">AllergyIntolerance Verification Status</a>#confirmed)</span></p><p><b>code</b>: No information about allergies <span style=\"background: LightGoldenRodYellow; margin: 4px; border: 1px solid khaki\"> (<a href=\"https://build.fhir.org/ig/HL7/fhir-ips//CodeSystem-absent-unknown-uv-ips.html\">Absent and Unknown Data - IPS</a>#no-allergy-info)</span></p><p><b>patient</b>: <a href=\"#Patient_c154158f-6a43-4ab7-8443-e7f4bf915dd3\">See above (Patient/c154158f-6a43-4ab7-8443-e7f4bf915dd3: IPS-2)</a></p></div>"
      },
      "clinicalStatus" : {
        "coding" : [{
          "system" : "http://terminology.hl7.org/CodeSystem/allergyintolerance-clinical",
          "code" : "active"
        }]
      },
      "verificationStatus" : {
        "coding" : [{
          "system" : "http://terminology.hl7.org/CodeSystem/allergyintolerance-verification",
          "code" : "confirmed"
        }]
      },
      "code" : {
        "coding" : [{
          "system" : "http://hl7.org/fhir/uv/ips/CodeSystem/absent-unknown-uv-ips",
          "code" : "no-allergy-info"
        }]
      },
      "patient" : {
        "reference" : "Patient/c154158f-6a43-4ab7-8443-e7f4bf915dd3",
        "display" : "IPS-2"
      }
    }
  },
  {
    "fullUrl" : "https://myserver.org/Condition/bcc79261-142c-48ec-b032-f3f9af49ec53",
    "resource" : {
      "resourceType" : "Condition",
      "id" : "bcc79261-142c-48ec-b032-f3f9af49ec53",
      "meta" : {
        "profile" : ["http://hl7.org/fhir/uv/ips/StructureDefinition/Condition-uv-ips"]
      },
      "text" : {
        "status" : "generated",
        "div" : "<div xmlns=\"http://www.w3.org/1999/xhtml\"><p><b>Generated Narrative: Condition</b><a name=\"bcc79261-142c-48ec-b032-f3f9af49ec53\"> </a></p><div style=\"display: inline-block; background-color: #d9e0e7; padding: 6px; margin: 4px; border: 1px solid #8da1b4; border-radius: 5px; line-height: 60%\"><p style=\"margin-bottom: 0px\">Resource Condition &quot;bcc79261-142c-48ec-b032-f3f9af49ec53&quot; </p><p style=\"margin-bottom: 0px\">Profile: <a href=\"https://build.fhir.org/ig/HL7/fhir-ips//StructureDefinition-Condition-uv-ips.html\">Condition (IPS)</a></p></div><p><b>clinicalStatus</b>: Active <span style=\"background: LightGoldenRodYellow; margin: 4px; border: 1px solid khaki\"> (<a href=\"http://terminology.hl7.org/5.0.0/CodeSystem-condition-clinical.html\">Condition Clinical Status Codes</a>#active)</span></p><p><b>code</b>: Malignant neoplasm of breast <span style=\"background: LightGoldenRodYellow; margin: 4px; border: 1px solid khaki\"> (<a href=\"https://browser.ihtsdotools.org/\">SNOMED CT</a>#254837009 &quot;Malignant neoplasm of breast (disorder)&quot;)</span></p><p><b>subject</b>: <a href=\"#Patient_c154158f-6a43-4ab7-8443-e7f4bf915dd3\">See above (Patient/c154158f-6a43-4ab7-8443-e7f4bf915dd3: IPS-2)</a></p><p><b>asserter</b>: <a href=\"#Practitioner_1ece89c5-fda3-4db9-ace6-decbe6c603d3\">See above (Practitioner/1ece89c5-fda3-4db9-ace6-decbe6c603d3: Dr. IPS2)</a></p></div>"
      },
      "clinicalStatus" : {
        "coding" : [{
          "system" : "http://terminology.hl7.org/CodeSystem/condition-clinical",
          "code" : "active"
        }]
      },
      "code" : {
        "coding" : [{
          "system" : "http://snomed.info/sct",
          "code" : "254837009",
          "display" : "Malignant neoplasm of breast (disorder)"
        }],
        "text" : "Malignant neoplasm of breast"
      },
      "subject" : {
        "reference" : "Patient/c154158f-6a43-4ab7-8443-e7f4bf915dd3",
        "display" : "IPS-2"
      },
      "asserter" : {
        "reference" : "Practitioner/1ece89c5-fda3-4db9-ace6-decbe6c603d3",
        "display" : "Dr. IPS2"
      }
    }
  },
  {
    "fullUrl" : "https://myserver.org/Condition/a4a9d90a-d1b0-4d60-82f0-c52343dc6253",
    "resource" : {
      "resourceType" : "Condition",
      "id" : "a4a9d90a-d1b0-4d60-82f0-c52343dc6253",
      "meta" : {
        "profile" : ["http://hl7.org/fhir/uv/ips/StructureDefinition/Condition-uv-ips"]
      },
      "text" : {
        "status" : "generated",
        "div" : "<div xmlns=\"http://www.w3.org/1999/xhtml\"><p><b>Generated Narrative: Condition</b><a name=\"a4a9d90a-d1b0-4d60-82f0-c52343dc6253\"> </a></p><div style=\"display: inline-block; background-color: #d9e0e7; padding: 6px; margin: 4px; border: 1px solid #8da1b4; border-radius: 5px; line-height: 60%\"><p style=\"margin-bottom: 0px\">Resource Condition &quot;a4a9d90a-d1b0-4d60-82f0-c52343dc6253&quot; </p><p style=\"margin-bottom: 0px\">Profile: <a href=\"https://build.fhir.org/ig/HL7/fhir-ips//StructureDefinition-Condition-uv-ips.html\">Condition (IPS)</a></p></div><p><b>clinicalStatus</b>: Active <span style=\"background: LightGoldenRodYellow; margin: 4px; border: 1px solid khaki\"> (<a href=\"http://terminology.hl7.org/5.0.0/CodeSystem-condition-clinical.html\">Condition Clinical Status Codes</a>#active)</span></p><p><b>code</b>: Rheumatoid arthritis <span style=\"background: LightGoldenRodYellow; margin: 4px; border: 1px solid khaki\"> (<a href=\"https://browser.ihtsdotools.org/\">SNOMED CT</a>#69896004 &quot;Rheumatoid arthritis (disorder)&quot;)</span></p><p><b>subject</b>: <a href=\"#Patient_c154158f-6a43-4ab7-8443-e7f4bf915dd3\">See above (Patient/c154158f-6a43-4ab7-8443-e7f4bf915dd3: IPS-2)</a></p><p><b>onset</b>: 2015</p><p><b>asserter</b>: <a href=\"#Practitioner_1ece89c5-fda3-4db9-ace6-decbe6c603d3\">See above (Practitioner/1ece89c5-fda3-4db9-ace6-decbe6c603d3: Dr. IPS2)</a></p></div>"
      },
      "clinicalStatus" : {
        "coding" : [{
          "system" : "http://terminology.hl7.org/CodeSystem/condition-clinical",
          "code" : "active"
        }]
      },
      "code" : {
        "coding" : [{
          "system" : "http://snomed.info/sct",
          "code" : "69896004",
          "display" : "Rheumatoid arthritis (disorder)"
        }],
        "text" : "Rheumatoid arthritis"
      },
      "subject" : {
        "reference" : "Patient/c154158f-6a43-4ab7-8443-e7f4bf915dd3",
        "display" : "IPS-2"
      },
      "onsetDateTime" : "2015",
      "asserter" : {
        "reference" : "Practitioner/1ece89c5-fda3-4db9-ace6-decbe6c603d3",
        "display" : "Dr. IPS2"
      }
    }
  },
  {
    "fullUrl" : "https://myserver.org/Condition/f06b7cf8-c15c-4288-a0f9-45a1026e5133",
    "resource" : {
      "resourceType" : "Condition",
      "id" : "f06b7cf8-c15c-4288-a0f9-45a1026e5133",
      "meta" : {
        "profile" : ["http://hl7.org/fhir/uv/ips/StructureDefinition/Condition-uv-ips"]
      },
      "text" : {
        "status" : "generated",
        "div" : "<div xmlns=\"http://www.w3.org/1999/xhtml\"><p><b>Generated Narrative: Condition</b><a name=\"f06b7cf8-c15c-4288-a0f9-45a1026e5133\"> </a></p><div style=\"display: inline-block; background-color: #d9e0e7; padding: 6px; margin: 4px; border: 1px solid #8da1b4; border-radius: 5px; line-height: 60%\"><p style=\"margin-bottom: 0px\">Resource Condition &quot;f06b7cf8-c15c-4288-a0f9-45a1026e5133&quot; </p><p style=\"margin-bottom: 0px\">Profile: <a href=\"https://build.fhir.org/ig/HL7/fhir-ips//StructureDefinition-Condition-uv-ips.html\">Condition (IPS)</a></p></div><p><b>clinicalStatus</b>: Active <span style=\"background: LightGoldenRodYellow; margin: 4px; border: 1px solid khaki\"> (<a href=\"http://terminology.hl7.org/5.0.0/CodeSystem-condition-clinical.html\">Condition Clinical Status Codes</a>#active)</span></p><p><b>code</b>: Hypercholesterolemia <span style=\"background: LightGoldenRodYellow; margin: 4px; border: 1px solid khaki\"> (<a href=\"https://browser.ihtsdotools.org/\">SNOMED CT</a>#13644009 &quot;Hypercholesterolemia (disorder)&quot;)</span></p><p><b>subject</b>: <a href=\"#Patient_c154158f-6a43-4ab7-8443-e7f4bf915dd3\">See above (Patient/c154158f-6a43-4ab7-8443-e7f4bf915dd3: IPS-2)</a></p><p><b>onset</b>: 1993</p></div>"
      },
      "clinicalStatus" : {
        "coding" : [{
          "system" : "http://terminology.hl7.org/CodeSystem/condition-clinical",
          "code" : "active"
        }]
      },
      "code" : {
        "coding" : [{
          "system" : "http://snomed.info/sct",
          "code" : "13644009",
          "display" : "Hypercholesterolemia (disorder)"
        }],
        "text" : "Hypercholesterolemia"
      },
      "subject" : {
        "reference" : "Patient/c154158f-6a43-4ab7-8443-e7f4bf915dd3",
        "display" : "IPS-2"
      },
      "onsetDateTime" : "1993"
    }
  },
  {
    "fullUrl" : "https://myserver.org/Condition/f06b7cf8-c15c-4288-a0f9-45a1026e6788",
    "resource" : {
      "resourceType" : "Condition",
      "id" : "f06b7cf8-c15c-4288-a0f9-45a1026e6788",
      "meta" : {
        "profile" : ["http://hl7.org/fhir/uv/ips/StructureDefinition/Condition-uv-ips"]
      },
      "text" : {
        "status" : "generated",
        "div" : "<div xmlns=\"http://www.w3.org/1999/xhtml\"><p><b>Generated Narrative: Condition</b><a name=\"f06b7cf8-c15c-4288-a0f9-45a1026e6788\"> </a></p><div style=\"display: inline-block; background-color: #d9e0e7; padding: 6px; margin: 4px; border: 1px solid #8da1b4; border-radius: 5px; line-height: 60%\"><p style=\"margin-bottom: 0px\">Resource Condition &quot;f06b7cf8-c15c-4288-a0f9-45a1026e6788&quot; </p><p style=\"margin-bottom: 0px\">Profile: <a href=\"https://build.fhir.org/ig/HL7/fhir-ips//StructureDefinition-Condition-uv-ips.html\">Condition (IPS)</a></p></div><p><b>clinicalStatus</b>: Active <span style=\"background: LightGoldenRodYellow; margin: 4px; border: 1px solid khaki\"> (<a href=\"http://terminology.hl7.org/5.0.0/CodeSystem-condition-clinical.html\">Condition Clinical Status Codes</a>#active)</span></p><p><b>code</b>: Epilepsy <span style=\"background: LightGoldenRodYellow; margin: 4px; border: 1px solid khaki\"> (<a href=\"https://browser.ihtsdotools.org/\">SNOMED CT</a>#84757009 &quot;Epilepsy (disorder)&quot;)</span></p><p><b>subject</b>: <a href=\"#Patient_c154158f-6a43-4ab7-8443-e7f4bf915dd3\">See above (Patient/c154158f-6a43-4ab7-8443-e7f4bf915dd3: IPS-2)</a></p><p><b>onset</b>: 1993</p></div>"
      },
      "clinicalStatus" : {
        "coding" : [{
          "system" : "http://terminology.hl7.org/CodeSystem/condition-clinical",
          "code" : "active"
        }]
      },
      "code" : {
        "coding" : [{
          "system" : "http://snomed.info/sct",
          "code" : "84757009",
          "display" : "Epilepsy (disorder)"
        }],
        "text" : "Epilepsy"
      },
      "subject" : {
        "reference" : "Patient/c154158f-6a43-4ab7-8443-e7f4bf915dd3",
        "display" : "IPS-2"
      },
      "onsetDateTime" : "1993"
    }
  },
  {
    "fullUrl" : "https://myserver.org/MedicationStatement/29074ca4-efcb-4ff4-8446-feed2399a893",
    "resource" : {
      "resourceType" : "MedicationStatement",
      "id" : "29074ca4-efcb-4ff4-8446-feed2399a893",
      "meta" : {
        "profile" : ["http://hl7.org/fhir/uv/ips/StructureDefinition/MedicationStatement-uv-ips"]
      },
      "text" : {
        "status" : "generated",
        "div" : "<div xmlns=\"http://www.w3.org/1999/xhtml\"><p><b>Generated Narrative: MedicationStatement</b><a name=\"29074ca4-efcb-4ff4-8446-feed2399a893\"> </a></p><div style=\"display: inline-block; background-color: #d9e0e7; padding: 6px; margin: 4px; border: 1px solid #8da1b4; border-radius: 5px; line-height: 60%\"><p style=\"margin-bottom: 0px\">Resource MedicationStatement &quot;29074ca4-efcb-4ff4-8446-feed2399a893&quot; </p><p style=\"margin-bottom: 0px\">Profile: <a href=\"https://build.fhir.org/ig/HL7/fhir-ips//StructureDefinition-MedicationStatement-uv-ips.html\">Medication Statement (IPS)</a></p></div><p><b>status</b>: active</p><p><b>medication</b>: <a href=\"#Medication_b50ae644-e0b7-4007-809f-26f493cbe363\">See above (Medication/b50ae644-e0b7-4007-809f-26f493cbe363: trastuzumab)</a></p><p><b>subject</b>: <a href=\"#Patient_c154158f-6a43-4ab7-8443-e7f4bf915dd3\">See above (Patient/c154158f-6a43-4ab7-8443-e7f4bf915dd3: IPS-2)</a></p><p><b>effective</b>: 2015</p><h3>Dosages</h3><table class=\"grid\"><tr><td style=\"display: none\">-</td><td><b>Route</b></td></tr><tr><td style=\"display: none\">*</td><td>Intravenous use <span style=\"background: LightGoldenRodYellow; margin: 4px; border: 1px solid khaki\"> (standardterms.edqm.eu#20045000)</span></td></tr></table></div>"
      },
      "status" : "active",
      "medicationReference" : {
        "reference" : "Medication/b50ae644-e0b7-4007-809f-26f493cbe363",
        "display" : "trastuzumab"
      },
      "subject" : {
        "reference" : "Patient/c154158f-6a43-4ab7-8443-e7f4bf915dd3",
        "display" : "IPS-2"
      },
      "effectiveDateTime" : "2015",
      "dosage" : [{
        "route" : {
          "coding" : [{
            "system" : "http://standardterms.edqm.eu",
            "code" : "20045000",
            "display" : "Intravenous use"
          }]
        }
      }]
    }
  },
  {
    "fullUrl" : "https://myserver.org/MedicationStatement/f6cb1218-f81c-4338-80d8-3c10910f78f3",
    "resource" : {
      "resourceType" : "MedicationStatement",
      "id" : "f6cb1218-f81c-4338-80d8-3c10910f78f3",
      "meta" : {
        "profile" : ["http://hl7.org/fhir/uv/ips/StructureDefinition/MedicationStatement-uv-ips"]
      },
      "text" : {
        "status" : "generated",
        "div" : "<div xmlns=\"http://www.w3.org/1999/xhtml\"><p><b>Generated Narrative: MedicationStatement</b><a name=\"f6cb1218-f81c-4338-80d8-3c10910f78f3\"> </a></p><div style=\"display: inline-block; background-color: #d9e0e7; padding: 6px; margin: 4px; border: 1px solid #8da1b4; border-radius: 5px; line-height: 60%\"><p style=\"margin-bottom: 0px\">Resource MedicationStatement &quot;f6cb1218-f81c-4338-80d8-3c10910f78f3&quot; </p><p style=\"margin-bottom: 0px\">Profile: <a href=\"https://build.fhir.org/ig/HL7/fhir-ips//StructureDefinition-MedicationStatement-uv-ips.html\">Medication Statement (IPS)</a></p></div><p><b>status</b>: active</p><p><b>medication</b>: <a href=\"#Medication_de131e15-ed13-4b31-b38c-3204a84d99c3\">See above (Medication/de131e15-ed13-4b31-b38c-3204a84d99c3: simvastatin)</a></p><p><b>subject</b>: <a href=\"#Patient_c154158f-6a43-4ab7-8443-e7f4bf915dd3\">See above (Patient/c154158f-6a43-4ab7-8443-e7f4bf915dd3: IPS-2)</a></p><p><b>effective</b>: 2020</p><h3>Dosages</h3><table class=\"grid\"><tr><td style=\"display: none\">-</td><td><b>Route</b></td></tr><tr><td style=\"display: none\">*</td><td>Oral use <span style=\"background: LightGoldenRodYellow; margin: 4px; border: 1px solid khaki\"> (standardterms.edqm.eu#20053000)</span></td></tr></table></div>"
      },
      "status" : "active",
      "medicationReference" : {
        "reference" : "Medication/de131e15-ed13-4b31-b38c-3204a84d99c3",
        "display" : "simvastatin"
      },
      "subject" : {
        "reference" : "Patient/c154158f-6a43-4ab7-8443-e7f4bf915dd3",
        "display" : "IPS-2"
      },
      "effectiveDateTime" : "2020",
      "dosage" : [{
        "route" : {
          "coding" : [{
            "system" : "http://standardterms.edqm.eu",
            "code" : "20053000",
            "display" : "Oral use"
          }]
        }
      }]
    }
  },
  {
    "fullUrl" : "https://myserver.org/MedicationStatement/f26084c9-b1c8-46d9-acb2-1d400ade87b3",
    "resource" : {
      "resourceType" : "MedicationStatement",
      "id" : "f26084c9-b1c8-46d9-acb2-1d400ade87b3",
      "meta" : {
        "profile" : ["http://hl7.org/fhir/uv/ips/StructureDefinition/MedicationStatement-uv-ips"]
      },
      "text" : {
        "status" : "generated",
        "div" : "<div xmlns=\"http://www.w3.org/1999/xhtml\"><p><b>Generated Narrative: MedicationStatement</b><a name=\"f26084c9-b1c8-46d9-acb2-1d400ade87b3\"> </a></p><div style=\"display: inline-block; background-color: #d9e0e7; padding: 6px; margin: 4px; border: 1px solid #8da1b4; border-radius: 5px; line-height: 60%\"><p style=\"margin-bottom: 0px\">Resource MedicationStatement &quot;f26084c9-b1c8-46d9-acb2-1d400ade87b3&quot; </p><p style=\"margin-bottom: 0px\">Profile: <a href=\"https://build.fhir.org/ig/HL7/fhir-ips//StructureDefinition-MedicationStatement-uv-ips.html\">Medication Statement (IPS)</a></p></div><p><b>status</b>: active</p><p><b>medication</b>: <a href=\"#Medication_9ac3356c-4ea4-4814-84c3-235484f2ef13\">See above (Medication/9ac3356c-4ea4-4814-84c3-235484f2ef13: enbrel)</a></p><p><b>subject</b>: <a href=\"#Patient_c154158f-6a43-4ab7-8443-e7f4bf915dd3\">See above (Patient/c154158f-6a43-4ab7-8443-e7f4bf915dd3: IPS-2)</a></p><p><b>effective</b>: 2023</p><h3>Dosages</h3><table class=\"grid\"><tr><td style=\"display: none\">-</td><td><b>Route</b></td></tr><tr><td style=\"display: none\">*</td><td>Subcutaneous use <span style=\"background: LightGoldenRodYellow; margin: 4px; border: 1px solid khaki\"> (standardterms.edqm.eu#20066000)</span></td></tr></table></div>"
      },
      "status" : "active",
      "medicationReference" : {
        "reference" : "Medication/9ac3356c-4ea4-4814-84c3-235484f2ef13",
        "display" : "enbrel"
      },
      "subject" : {
        "reference" : "Patient/c154158f-6a43-4ab7-8443-e7f4bf915dd3",
        "display" : "IPS-2"
      },
      "effectiveDateTime" : "2023",
      "dosage" : [{
        "route" : {
          "coding" : [{
            "system" : "http://standardterms.edqm.eu",
            "code" : "20066000",
            "display" : "Subcutaneous use"
          }]
        }
      }]
    }
  },
  {
    "fullUrl" : "https://myserver.org/MedicationStatement/f26084c9-b1c8-46d9-acb2-1d400ade94gy",
    "resource" : {
      "resourceType" : "MedicationStatement",
      "id" : "f26084c9-b1c8-46d9-acb2-1d400ade94gy",
      "meta" : {
        "profile" : ["http://hl7.org/fhir/uv/ips/StructureDefinition/MedicationStatement-uv-ips"]
      },
      "text" : {
        "status" : "generated",
        "div" : "<div xmlns=\"http://www.w3.org/1999/xhtml\"><p><b>Generated Narrative: MedicationStatement</b><a name=\"f26084c9-b1c8-46d9-acb2-1d400ade94gy\"> </a></p><div style=\"display: inline-block; background-color: #d9e0e7; padding: 6px; margin: 4px; border: 1px solid #8da1b4; border-radius: 5px; line-height: 60%\"><p style=\"margin-bottom: 0px\">Resource MedicationStatement &quot;f26084c9-b1c8-46d9-acb2-1d400ade94gy&quot; </p><p style=\"margin-bottom: 0px\">Profile: <a href=\"https://build.fhir.org/ig/HL7/fhir-ips//StructureDefinition-MedicationStatement-uv-ips.html\">Medication Statement (IPS)</a></p></div><p><b>status</b>: active</p><p><b>medication</b>: <a href=\"#Medication_9ac3356c-4ea4-4814-84c3-235484f2jk90\">See above (Medication/9ac3356c-4ea4-4814-84c3-235484f2jk90: carbamazepine)</a></p><p><b>subject</b>: <a href=\"#Patient_c154158f-6a43-4ab7-8443-e7f4bf915dd3\">See above (Patient/c154158f-6a43-4ab7-8443-e7f4bf915dd3: IPS-2)</a></p><p><b>effective</b>: 2020</p><h3>Dosages</h3><table class=\"grid\"><tr><td style=\"display: none\">-</td><td><b>Route</b></td></tr><tr><td style=\"display: none\">*</td><td>Oral use <span style=\"background: LightGoldenRodYellow; margin: 4px; border: 1px solid khaki\"> (standardterms.edqm.eu#20053000)</span></td></tr></table></div>"
      },
      "status" : "active",
      "medicationReference" : {
        "reference" : "Medication/9ac3356c-4ea4-4814-84c3-235484f2jk90",
        "display" : "carbamazepine"
      },
      "subject" : {
        "reference" : "Patient/c154158f-6a43-4ab7-8443-e7f4bf915dd3",
        "display" : "IPS-2"
      },
      "effectiveDateTime" : "2020",
      "dosage" : [{
        "route" : {
          "coding" : [{
            "system" : "http://standardterms.edqm.eu",
            "code" : "20053000",
            "display" : "Oral use"
          }]
        }
      }]
    }
  },
  {
    "fullUrl" : "https://myserver.org/Medication/b50ae644-e0b7-4007-809f-26f493cbe363",
    "resource" : {
      "resourceType" : "Medication",
      "id" : "b50ae644-e0b7-4007-809f-26f493cbe363",
      "meta" : {
        "profile" : ["http://hl7.org/fhir/uv/ips/StructureDefinition/Medication-uv-ips"]
      },
      "text" : {
        "status" : "generated",
        "div" : "<div xmlns=\"http://www.w3.org/1999/xhtml\"><p><b>Generated Narrative: Medication</b><a name=\"b50ae644-e0b7-4007-809f-26f493cbe363\"> </a></p><div style=\"display: inline-block; background-color: #d9e0e7; padding: 6px; margin: 4px; border: 1px solid #8da1b4; border-radius: 5px; line-height: 60%\"><p style=\"margin-bottom: 0px\">Resource Medication &quot;b50ae644-e0b7-4007-809f-26f493cbe363&quot; </p><p style=\"margin-bottom: 0px\">Profile: <a href=\"https://build.fhir.org/ig/HL7/fhir-ips//StructureDefinition-Medication-uv-ips.html\">Medication (IPS)</a></p></div><p><b>code</b>: 4249 <span style=\"background: LightGoldenRodYellow; margin: 4px; border: 1px solid khaki\"> (no#4249)</span></p><p><b>form</b>: Powder and solvent for concentrate for solution for infusion <span style=\"background: LightGoldenRodYellow; margin: 4px; border: 1px solid khaki\"> (standardterms.edqm.eu#50042000)</span></p><h3>Ingredients</h3><table class=\"grid\"><tr><td style=\"display: none\">-</td><td><b>Item[x]</b></td></tr><tr><td style=\"display: none\">*</td><td>trastuzumab <span style=\"background: LightGoldenRodYellow; margin: 4px; border: 1px solid khaki\"> (<a href=\"http://terminology.hl7.org/5.0.0/CodeSystem-UNII.html\">Unique Ingredient Identifier (UNII)</a>#P188ANX8CK)</span></td></tr></table></div>"
      },
      "code" : {
        "coding" : [{
          "system" : "http://example.org/mpid/no",
          "code" : "4249"
        }]
      },
      "form" : {
        "coding" : [{
          "system" : "http://standardterms.edqm.eu",
          "code" : "50042000",
          "display" : "Powder and solvent for concentrate for solution for infusion"
        }]
      },
      "ingredient" : [{
        "itemCodeableConcept" : {
          "coding" : [{
            "system" : "http://fdasis.nlm.nih.gov",
            "code" : "P188ANX8CK",
            "display" : "trastuzumab"
          }],
          "text" : "trastuzumab"
        }
      }]
    }
  },
  {
    "fullUrl" : "https://myserver.org/Medication/de131e15-ed13-4b31-b38c-3204a84d99c3",
    "resource" : {
      "resourceType" : "Medication",
      "id" : "de131e15-ed13-4b31-b38c-3204a84d99c3",
      "meta" : {
        "profile" : ["http://hl7.org/fhir/uv/ips/StructureDefinition/Medication-uv-ips"]
      },
      "text" : {
        "status" : "generated",
        "div" : "<div xmlns=\"http://www.w3.org/1999/xhtml\"><p><b>Generated Narrative: Medication</b><a name=\"de131e15-ed13-4b31-b38c-3204a84d99c3\"> </a></p><div style=\"display: inline-block; background-color: #d9e0e7; padding: 6px; margin: 4px; border: 1px solid #8da1b4; border-radius: 5px; line-height: 60%\"><p style=\"margin-bottom: 0px\">Resource Medication &quot;de131e15-ed13-4b31-b38c-3204a84d99c3&quot; </p><p style=\"margin-bottom: 0px\">Profile: <a href=\"https://build.fhir.org/ig/HL7/fhir-ips//StructureDefinition-Medication-uv-ips.html\">Medication (IPS)</a></p></div><p><b>code</b>: Lipcut\tSimvastatin\t5 mg\ttablet <span style=\"background: LightGoldenRodYellow; margin: 4px; border: 1px solid khaki\"> (phpid#F92168108C432D63DACDD70444176BB3)</span></p><p><b>form</b>: Tablet <span style=\"background: LightGoldenRodYellow; margin: 4px; border: 1px solid khaki\"> (standardterms.edqm.eu#10219000)</span></p><h3>Ingredients</h3><table class=\"grid\"><tr><td style=\"display: none\">-</td><td><b>Item[x]</b></td></tr><tr><td style=\"display: none\">*</td><td>SIMVASTATIN <span style=\"background: LightGoldenRodYellow; margin: 4px; border: 1px solid khaki\"> (<a href=\"http://terminology.hl7.org/5.0.0/CodeSystem-UNII.html\">Unique Ingredient Identifier (UNII)</a>#AGG2FN16EV)</span></td></tr></table></div>"
      },
      "code" : {
        "coding" : [{
          "system" : "https://www.who-umc.org/phpid",
          "code" : "F92168108C432D63DACDD70444176BB3",
          "display" : "Lipcut\tSimvastatin\t5 mg\ttablet"
        }]
      },
      "form" : {
        "coding" : [{
          "system" : "http://standardterms.edqm.eu",
          "code" : "10219000",
          "display" : "Tablet"
        }]
      },
      "ingredient" : [{
        "itemCodeableConcept" : {
          "coding" : [{
            "system" : "http://fdasis.nlm.nih.gov",
            "code" : "AGG2FN16EV",
            "display" : "SIMVASTATIN"
          }],
          "text" : "SIMVASTATIN"
        }
      }]
    }
  },
  {
    "fullUrl" : "https://myserver.org/Medication/9ac3356c-4ea4-4814-84c3-235484f2ef13",
    "resource" : {
      "resourceType" : "Medication",
      "id" : "9ac3356c-4ea4-4814-84c3-235484f2ef13",
      "meta" : {
        "profile" : ["http://hl7.org/fhir/uv/ips/StructureDefinition/Medication-uv-ips"]
      },
      "text" : {
        "status" : "generated",
        "div" : "<div xmlns=\"http://www.w3.org/1999/xhtml\"><p><b>Generated Narrative: Medication</b><a name=\"9ac3356c-4ea4-4814-84c3-235484f2ef13\"> </a></p><div style=\"display: inline-block; background-color: #d9e0e7; padding: 6px; margin: 4px; border: 1px solid #8da1b4; border-radius: 5px; line-height: 60%\"><p style=\"margin-bottom: 0px\">Resource Medication &quot;9ac3356c-4ea4-4814-84c3-235484f2ef13&quot; </p><p style=\"margin-bottom: 0px\">Profile: <a href=\"https://build.fhir.org/ig/HL7/fhir-ips//StructureDefinition-Medication-uv-ips.html\">Medication (IPS)</a></p></div><p><b>code</b>: Enbrel Etanercept\t25 mg powder for solution for injection <span style=\"background: LightGoldenRodYellow; margin: 4px; border: 1px solid khaki\"> (phpid#0xF79CABF272B6A7EEF104DDDA44E82716)</span></p><p><b>form</b>: Powder and solution for solution for injection <span style=\"background: LightGoldenRodYellow; margin: 4px; border: 1px solid khaki\"> (standardterms.edqm.eu#50041500)</span></p><h3>Ingredients</h3><table class=\"grid\"><tr><td style=\"display: none\">-</td><td><b>Item[x]</b></td></tr><tr><td style=\"display: none\">*</td><td>Enbrel Etanercept\t25 mg <span style=\"background: LightGoldenRodYellow; margin: 4px; border: 1px solid khaki\"> (<a href=\"http://terminology.hl7.org/5.0.0/CodeSystem-UNII.html\">Unique Ingredient Identifier (UNII)</a>#OP401G7OJC &quot;ETANERCEPT (ENBREL)&quot;)</span></td></tr></table></div>"
      },
      "code" : {
        "coding" : [{
          "system" : "https://www.who-umc.org/phpid",
          "code" : "0xF79CABF272B6A7EEF104DDDA44E82716",
          "display" : "Enbrel Etanercept\t25 mg powder for solution for injection"
        }]
      },
      "form" : {
        "coding" : [{
          "system" : "http://standardterms.edqm.eu",
          "code" : "50041500",
          "display" : "Powder and solution for solution for injection"
        }],
        "text" : "Powder and solution for solution for injection"
      },
      "ingredient" : [{
        "itemCodeableConcept" : {
          "coding" : [{
            "system" : "http://fdasis.nlm.nih.gov",
            "code" : "OP401G7OJC",
            "display" : "ETANERCEPT (ENBREL)"
          }],
          "text" : "Enbrel Etanercept\t25 mg"
        }
      }]
    }
  },
  {
    "fullUrl" : "https://myserver.org/Medication/9ac3356c-4ea4-4814-84c3-235484f2jk90",
    "resource" : {
      "resourceType" : "Medication",
      "id" : "9ac3356c-4ea4-4814-84c3-235484f2jk90",
      "meta" : {
        "profile" : ["http://hl7.org/fhir/uv/ips/StructureDefinition/Medication-uv-ips"]
      },
      "text" : {
        "status" : "generated",
        "div" : "<div xmlns=\"http://www.w3.org/1999/xhtml\"><p><b>Generated Narrative: Medication</b><a name=\"9ac3356c-4ea4-4814-84c3-235484f2jk90\"> </a></p><div style=\"display: inline-block; background-color: #d9e0e7; padding: 6px; margin: 4px; border: 1px solid #8da1b4; border-radius: 5px; line-height: 60%\"><p style=\"margin-bottom: 0px\">Resource Medication &quot;9ac3356c-4ea4-4814-84c3-235484f2jk90&quot; </p><p style=\"margin-bottom: 0px\">Profile: <a href=\"https://build.fhir.org/ig/HL7/fhir-ips//StructureDefinition-Medication-uv-ips.html\">Medication (IPS)</a></p></div><p><b>code</b>: Tegretol\tCarbamazepine\t200 mg\ttablets <span style=\"background: LightGoldenRodYellow; margin: 4px; border: 1px solid khaki\"> (phpid#5C62673C79E096D37914D32A45AA8F4D; phpid#FB9808F4FED210183F412F9998622287)</span></p><p><b>form</b>: Tablet <span style=\"background: LightGoldenRodYellow; margin: 4px; border: 1px solid khaki\"> (standardterms.edqm.eu#10219000)</span></p><h3>Ingredients</h3><table class=\"grid\"><tr><td style=\"display: none\">-</td><td><b>Item[x]</b></td></tr><tr><td style=\"display: none\">*</td><td>CARBAMAZEPINE <span style=\"background: LightGoldenRodYellow; margin: 4px; border: 1px solid khaki\"> (<a href=\"http://terminology.hl7.org/5.0.0/CodeSystem-UNII.html\">Unique Ingredient Identifier (UNII)</a>#33CM23913M)</span></td></tr></table></div>"
      },
      "code" : {
        "coding" : [{
          "system" : "https://www.who-umc.org/phpid",
          "code" : "5C62673C79E096D37914D32A45AA8F4D",
          "display" : "Tegretol\tCarbamazepine\t200 mg\ttablets"
        },
        {
          "system" : "https://www.who-umc.org/phpid",
          "code" : "FB9808F4FED210183F412F9998622287",
          "display" : "Tegretol\tCarbamazepine\t200 mg\ttablets"
        }]
      },
      "form" : {
        "coding" : [{
          "system" : "http://standardterms.edqm.eu",
          "code" : "10219000",
          "display" : "Tablet"
        }]
      },
      "ingredient" : [{
        "itemCodeableConcept" : {
          "coding" : [{
            "system" : "http://fdasis.nlm.nih.gov",
            "code" : "33CM23913M",
            "display" : "CARBAMAZEPINE"
          }],
          "text" : "CARBAMAZEPINE"
        }
      }]
    }
  }]
}